Folder: Machine_Learning/data/processed_data

Note: README.md
# 机器学习课设作业

Welcome to the **Machine Learning Project Repository**! This project is designed around the coursework requirements, focusing on solving **classification** and **regression** problems. By integrating classical and modern machine learning techniques with in-depth exploratory data analysis (EDA) and visualization, we aim to comprehensively implement machine learning tasks. From data analysis and feature engineering to model implementation and evaluation, we employ various algorithms such as logistic regression, support vector machines, and gradient boosting trees to process real-world datasets. Additionally, we explore clustering and dimensionality reduction techniques to analyze the differences between unsupervised and supervised learning outcomes. Through this project, you will experience the complete workflow from data to models, enhancing your understanding and practical skills in machine learning. Let’s delve into the fascinating world of machine learning and unlock the unlimited potential hidden in data!

![机器学习作业工作流程图 drawio](https://github.com/user-attachments/assets/023090b6-0e18-4dd0-bcbc-9b85a8b9af67)

## 分类
**1、数据集：Wine Quality Data Set**
这个数据集包含了不同葡萄酒的质量评分和其他物理化学性质，如固定酸度、挥发性酸度、柠檬酸等。总共有12个特征，质量评分作为目标变量，可以被视为一个多分类任务。红葡萄酒数据集有1599个样本，白葡萄酒数据集有4898个样本。
链接：[Wine Quality - UCI Machine Learning Repository](https://archive.ics.uci.edu/dataset/186/wine+quality)

**2、设计目标**
1)	对数据集进行深入理解和介绍。
2)	进行数据探索，如进行属性间的相关性分析，如有缺失、离群点之类的，进行相应处理。
3)	特征工程，包括标准化、TF-IDF（非必须）,log(x+1)（非必须）等,如果有必要进行降维
4)	应用经典的机器学习分类算法（如决策树、逻辑回归、支持向量机、朴素贝叶斯、集成算法和BP神经网络等，不少于3种）对数据进行分类，。
5)	在去掉标签栏后，对这份数据进行降维和聚类。可以先降维后再聚类，也可以各自进行。将聚类的结果与监督分类的结果进行对比和分析。
6)	评估和比较不同分类算法，尽量将过程和结果可视化。

## 回归
**1、数据集：Concrete Compressive Strength Data Set**
描述: 该数据集包含水泥强度与组成材料之间的关系。它有8个特征（包括水泥、炉渣、飞灰、水、超细粉、粗骨料、细骨料和龄期）和一个目标变量（混凝土抗压强度）。样本量: 1030
链接: [Concrete Compressive Strength - UCI Machine Learning Repository](https://archive.ics.uci.edu/dataset/165/concrete+compressive+strength)

**2、设计目标**
1)	对数据集进行深入理解和介绍。
2)	进行数据探索，如进行属性间的相关性分析，如有缺失、离群点之类的，进行相应处理。
3)	特征工程，包括标准化、TF-IDF（非必须）,log(x+1)（非必须）等,如果有必要进行降维
4)	应用经典的机器学习回归算法（如线性回归、CART树、集成学习、神经网络、支持向量回归等，不少于2种）对数据预测。
5)	评估和比较不同算法，尽量将过程和结果可视化。

### Classification
- **Dataset**: Wine Quality Data Set (Red and White Wines).
- **Key Tasks**:
  - 数据探索：/eda，包括目标变量分析；变量统计汇总；变量相关性分析；由于数据集没有缺失值，因此只做了异常值检测
  - 数据预处理：/preprocessing, 包括检测并剔除异常值；基于相关性过滤的特征选择；特征变量进行数据标准化
  - 模型实验：实现监督分类算法（逻辑斯蒂回归、朴素贝叶斯、深度随机森林、极端随机树、梯度提升决策树、轻量级梯度提升机、随机森林、支持向量机、极限梯度提升）
  - 将聚类结果与监督分类输出进行比较:/Dimensionality_Reduction_and_Clustering_wine_quality
  - 统计模型性能指标：/results_preprocessed

### Regression
- **Dataset**: Concrete Compressive Strength Data Set.
- **Key Tasks**:
  - 数据探索：/eda，包括目标变量分析；变量统计汇总；变量相关性分析；由于数据集没有缺失值，因此只做了异常值检测
  - 数据预处理：/preprocessing, 包括检测并剔除异常值；基于相关性过滤的特征选择；特征变量进行数据标准化
  - 模型实验：实现监督回归算法（规则线性回归、深度随机森林、极端随机树、梯度提升决策树、轻量级梯度提升机、随机森林、支持向量机、极限梯度提升）
  - 统计模型性能指标：/results_preprocessed

## Installation

To set up the repository, follow these steps:

Clone this repository:
   ```bas

File: standardized_selected_features_data_concrete.csv
Cement (component 1)(kg in a m^3 mixture),Blast Furnace Slag (component 2)(kg in a m^3 mixture),Fly Ash (component 3)(kg in a m^3 mixture),Water (component 4)(kg in a m^3 mixture),Superplasticizer (component 5)(kg in a m^3 mixture),Coarse Aggregate (component 6)(kg in a m^3 mixture),Fine Aggregate (component 7)(kg in a m^3 mixture),Age (day),"Concrete compressive strength(MPa, megapascals)"
2.62098,-0.850159,-0.915228,-0.997971,-0.722978,1.01872,-1.43915,-0.148807,1.61676
-1.32767,1.57641,-0.915228,0.679312,-1.19284,0.916201,0.380867,2.03451,0.268298
-0.74583,0.684121,-0.915228,0.679312,-1.19284,0.037144,0.639479,-1.02918,-1.54088
1.97996,0.526521,-0.915228,0.0698989,0.479866,-1.58129,0.0277087,-1.02918,0.174868
1.03816,0.901979,-0.915228,-1.45084,1.79548,2.03488,-2.42633,-1.02918,-0.375642
0.983923,1.34233,-0.915228,-0.545105,0.705399,-0.633041,-0.317108,-0.888319,0.677921
0.439554,1.61234,-0.915228,-1.3502,1.49477,-1.58129,1.4028,-0.888319,-0.0884195
1.62494,1.20096,-0.915228,0.343855,0.893343,-1.16099,-0.995617,-0.888319,1.27011
1.97996,0.526521,-0.915228,0.0698989,0.479866,-1.58129,0.0277087,-0.148807,2.00055
1.03816,0.901979,-0.915228,-1.45084,1.79548,2.03488,-2.42633,-0.148807,1.03695
0.983923,1.34233,-0.915228,-0.545105,0.705399,-0.633041,-0.317108,0.837208,1.70714
0.439554,1.61234,-0.915228,-1.3502,1.49477,-1.58129,1.4028,0.837208,1.8689
1.14073,1.34001,-0.915228,-1.89811,2.94194,-0.394696,-0.329621,0.837208,2.66496
1.48687,0.381668,-0.915228,-1.4732,1.90824,-1.58129,1.49596,2.06973,1.81484
0.119047,1.47791,-0.915228,-1.9652,0.912138,0.372877,0.336375,2.06973,2.50938
-0.511514,-0.850159,0.58541,0.527797,-0.354607,-0.107913,1.26265,0.837208,-0.324883
-0.784488,-0.850159,0.645175,-0.795579,0.212985,0.395943,1.75735,-0.641815,-0.591885
-0.823935,-0.850159,1.03139,-0.990144,0.267489,1.46721,0.340685,2.38666,0.340764
-0.436466,-0.850159,0.921334,0.873318,-0.322656,0.69067,-0.290829,-0.148807,-0.62201
-1.06644,-0.850159,1.61926,-0.189521,-0.348969,1.06485,0.00810419,-1.02918,-1.44324
-0.59672,0.286066,-0.534752,0.104004,0.0964595,1.15711,0.0816557,0.837208,0.951525
-0.439326,-0.850159,0.919006,0.859899,-0.0407399,0.674012,-0.304177,-0.641815,-0.751591
-0.356783,-0.850159,0.54567,0.380755,0.122772,-0.327934,0.938552,2.38666,0.564022
-0.608554,-0.850159,0.642846,-1.14781,0.444157,0.413883,1.72523,-0.148807,-0.193652
-0.613682,-0.850159,1.02177,-1.1657,0.280645,1.40827,0.278535,-1.02918,-0.919137
-0.418912,-0.850159,0.972717,-0.329295,0.0701473,1.03665,-0.0146982,0.837208,0.468281
-0.225425,-0.850159,0.920713,0.480833,0.000607876,0.677856,-0.302787,-0.641815,-0.625312
-0.915649,-0.850159,1.67732,-0.573619,0.228021,1.0264,-0.0237357,2.38666,0.627987
-1.03892,-0.360904,1.01354,-1.20316,0.842598,1.34932,0.2314,-0.148807,-0.225015
0.0278254,-0.850159,0.596587,-1.07624,1.03054,-0.0205201,1.3362,-1.02918,-0.702482
0.211846,-0.850159,0.569421,-0.464595,0.474228,-0.260915,1.10804,0.837208,0.828548
-0.247811,-0.850159,0.617699,-1.21546,1.21285,0.157085,1.52251,-0.641815,-0.37069
-0.216155,-0.850159,0.617699,-1.87855,1.47033,0.157085,1.52251,2.38666,1.56064
0.00829911,-0.850159,0.968525,-1.13886,0.66781,1.00078,-0.0279069,-0.148807,0.984952
-0.596523,-0.850159,1.79731,-1.40108,0.716676,0.999494,-0.0438963,-1.02918,-1.03551
-0.59889,-0.850159,1.78955,-1.41114,0.998592,0.984117,-0.0559927,0.837208,0.991142
-0.552243,-0.216979,1.00625,-2.18605,1.04558,1.28397,0.183015,-0.641815,0.0646834
-0.585083,-0.226713,0.976908,-1.35411,0.613306,0.497175,0.0149171,2.38666,1.3023
1.00365,-0.850159,-0.915228,1.94287,-1.19284,0.358782,-0.238412,-0.148807,-0.173844
2.42374,-0.850159,-0.915228,-0.550696,-0.215528,-1.54413,1.04964,-0.148807,1.52061
0.589453,-0.646206,1.53745,0.511583,1.68271,-0.108938,-2.03702,-0.148807,0.565673
1.97996,-0.850159,-0.915228,-0.997971,0.592633,0.877758,-1.6338,-0.148807,1.41537
-1.05401,0.65515,1.08138,-0.24543,0.271248,0.394661,-0.457537,-1.02918,-1.19315
-0.784488,-0.850159,0.645175,-0.541191,0.212985,0.288303,1.70035,-1.02918,-1.35864
-1.05746,0.0235925,1.67716,-0.884475,0.293801,0.407476,-0.130796,-0.641815,-0.118132
-1.07719,0.638927,1.1354,-0.267794,0.325752,0.388254,-0.457537,-0.148807,0.689063
-0.238935,-0.850159,0.570197,0.670366,-0.191095,-0.340876,1.08023,-0.148807,-0.458178
-1.00441,-0.692443,1.76052,-1.29094,-0.414749,0.394661,1.06911,0.837208,0.0584933
-0.225425,-0.850159,0.920713,0.731867,-0.112159,0.872633,-0.350477,0.837208,0.262768
-0.990303,0.231833,1.56695,-0.419868,0.63586,0.406194,-0.457537,2.38666,0.961429
1.69397,-0.572042,0.311113,-0.997971,0.994833,-0.108938,-0.938611,-0.148807,0.966381
1.69397,-0.572042,0.311113,-0.997971,0.989195,-0.108938,-0.938611,0.837208,1.56765
1.11213,-0.618395,0.543963,-1.27752,1.42523,-0.480551,0.910605,-1.02918,-0.560521
0.79655,-0.629983,0.590533,-1.94843,1.27487,-0.108938,1.27211,-0.148807,0.547928
2.13775,-0.548865,0.994139,1.1825,-0.454217,-1.967,-1.11936,-0.888319,0.182296
1.47701,-0.595218,1.13385,-0.662515,0.483625,-1.967,-0.410264,-0.888319,0.323785
0.0963646,-0.676336,1.27356,-0.0475109,-0.166663,-1.71072,0.298834,-0.888319,-0.643057
0.835997,-0.629983,1.27356,-1.44525,0.857634,-0.429294,0.298834,0.837208,2.02755
2.02927,-0.850159,-0.915228,0.679312,-1.19284,-0.503617,-0.93583,-0.148807,0.542687
-0.189626,-0.850159,-0.915228,0.679312,-1.19284,-1.0982,2.30099,-0.148807,-0.965398
-0.355304,0.99005,-0.915228,0.327082,-1.19284,0.83419,-0.628554,-0.888319,-1.14826
-0.626503,2.81288,-0.915228,0.327082,-1.19284,0.0192041,-1.25423,-0.888319,-0.781427
-0.455894,3.11417,-0.915228,0.327082,-1.19284,-0.252458,-1.46279,-0.148807,0.288725
-0.697507,0.722362,-0.915228,0.327082,-1.19284,1.29038,-0.280957,-0.148807,-0.732938
-0.355304,0.99005,-0.915228,0.327082,-1.19284,0.83419,-0.628554,-0.148807,-0.476542
-0.868116,0.587939,-0.915228,0.327082,-1.19284,1.38264,-0.211438,-0.148807,-1.03419
-0.377,-0.850159,-0.915228,0.791131,-1.19284,-0.0961241,1.46676,-1.02918,-1.70033
-0.199488,-0.850159,-0.915228,1.01477,-1.19284,-0.0961241,1.16087,-1.02918,-1.53031
-0.485479,-0.850159,-0.915228,0.0643079,-1.19284,1.76194,0.743758,-0.888319,-1.41889
0.993785,-0.850159,-0.915228,0.343855,-1.19284,0.800873,-0.299033,-0.888319,-0.527507
-0.697507,2.68772,-0.915228,1.32227,-1.19284,-0.15507,-2.07873,-0.888319,-0.91794
-1.69848,0.922838,-0.915228,0.679312,-1.19284,-1.13408,2.25928,2.03451,-0.563493
-1.31091,1.60654,-0.915228,1.32227,-1.19284,-0.04743,-0.431119,-0.888319,-1.46531
0.135812,1.37478,-0.915228,0.679312,-1.19284,-0.557437,-0.857968,-1.02918,-1.12321
-1.69848,0.922838,-0.915228,0.679312,-1.19284,-1.13408,2.25928,-0.888319,-1.62799
-1.39276,1.46748,-0.915228,0.679312,-1.19284,-0.616382,0.829963,-0.888319,-1.26958
-1.19553,0.331839,-0.915228,0.679312,-1.19284,-1.12126,2.27458,-0.148807,-1.0122
0.135812,1.37478,-0.915228,0.679312,-1.19284,-0.557437,-0.857968,2.03451,0.936793
-0.998291,0.494074,-0.915228,0.679312,-1.19284,-0.367786,1.07467,2.03451,-0.165961
-1.31091,1.60654,-0.915228,1.32227,-1.19284,-0.04743,-0.431119,-1.02918,-1.79847
0.35277,-0.850159,-0.915228,0.679312,-1.19284,0.467703,0.702047,3.09096,0.228929
0.737379,-0.850159,-0.915228,0.679312,-1.19284,1.03153,0.410065,-0.148807,-0.0760393
2.02927,-0.850159,-0.915228,0.679312,-1.19284,-0.50618,-0.813476,-0.148807,0.539674
2.22651,-0.850159,-0.915228,1.12659,-1.19284,1.91571,-2.3151,-0.641815,0.123283
0.747241,-0.850159,-0.915228,1.29432,-1.19284,-0.0192387,-0.0626666,-0.148807,-0.451162
0.737379,-0.850159,-0.915228,0.679312,-1.19284,0.916201,0.368354,-1.02918,-1.19027
0.204844,-0.850159,-0.915228,0.287946,-1.19284,1.19811,-0.14609,-0.888319,-1.20182
0.559867,-0.850159,-0.915228,0.679312,-1.19284,0.0320183,0.632527,-0.148807,-0.205207
-0.219212,-0.850159,-0.915228,0.287946,-1.19284,1.73631,0.0624684,-0.888319,-1.26661
-0.219212,-0.850159,-0.915228,0.343855,-1.19284,1.73631,0.0624684,-0.888319,-1.40114
2.47305,-0.850159,-0.915228,0.511583,-1.19284,1.91571,-2.3151,-0.148807,1.26103
2.44346,-0.850159,-0.915228,-1.89252,-1.19284,-1.01875,1.6197,-0.148807,2.40084
0.2936,0.772191,-0.915228,1.90932,-0.0651726,-1.03156,-0.799572,-0.148807,-0.0871815
0.234429,0.737426,0.745766,1.1825,-0.0651726,-1.24941,-1.73113,-0.148807,1.11618
0.234429,-0.850159,0.745766,0.343855,-0.0651726,-1.23659,0.493489,-0.148807,0.464567
0.392218,-0.850159,0.838906,-0.550696,0.686605,-0.647137,0.0485645,-0.148807,0.214485
0.471112,-0.850159,0.885476,0.90295,0.686605,-2.01826,0.465681,-0.148807,-0.221301
-1.39276,1.58337,-0.915228,0.90295,-0.629006,-0.339595,0.215411,-0.148807,-0.23038
-1.24484,-0.850159,1.21147,-1.22161,1.81427,0.33956,0.702047,-0.148807,-1.01281
-1.29414,1.10825,1.3046,0.623402,0.310716,-0.108938,-1.89798,-0.148807,-0.308376
0.559867,1.11984,-0.915228,0.84704,0.310716,-2.10796,0.312738,-0.148807,1.30106
-1.28428,0.725838,0.730242,-0.10342,0.122772,-0.442109,-0.0765704,-0.148807,-0.522555
-1.27442,-0.850159,1.86344,1.23841,0.310716,-1.94138,1.2443,-0.148807,-1.45685
-1.10677,1.62972,1.63059,1.23841,0.686605,-1.99263,-1.38354,-0.148807,-0.253077
-0.889812,0.146428,2.0342,1.85341,-0.0651726,-0.672765,-2.17606,-0.148807,-0.714862
-1.20933,-0.850159,0.82183,0.2544,0.291922,0.211418,0.506002,-0.148807,-1.35835
-1.19848,0.826656,-0.915228,-0.0978294,0.310716,0.310087,0.593597,-0.148807,-0.949634
0.38137,1.00975,-0.915228,-0.125784,0.611427,-0.754776,-0.278177,-0.148807,1.05168
-1.17778,1.27512,-0.915228,0.751994,0.517455,-1.25966,1.22622,-0.148807,-0.663691
0.0273323,0.503345,0.497393,0.601039,0.122772,-0.37163,-1.58375,-0.148807,0.520897
-1.35923,1.0225,1.0376,-0.461241,0.761782,-0.677891,-0.210048,-0.148807,-0.347291
0.351784,0.804638,0.810964,-0.673697,2.96073,-0.789375,-1.78397,-0.148807,0.199917
-1.21624,-0.850159,1.93951,-0.740788,0.987316,0.201166,-0.101597,-0.148807,-1.15552
-1.16989,1.97157,-0.915228,0.0251713,0.818166,0.595845,-1.13744,-0.148807,0.148911
0.476043,0.87185,-0.915228,0.332673,0.404688,-0.313966,-0.973371,-0.148807,1.05048
-1.06732,2.1593,-0.915228,0.187309,1.19405,-1.49544,0.657554,-0.148807,0.182049
-0.131442,0.314457,0.300247,1.16013,0.423483,-1.4224,-0.250369,-0.148807,-0.148093